Folder: MNT_ITESM_Thesis/04_Papers/SU8_PhysicalTreatment/data

Note: README.md
MNT_ITESM_Thesis

File: XRD.csv
IntensityB,DegreesB,IntensityA,DegreesA,DegreesAp1000
5,950,5,1046,2046
5.2,930,5.2,975,1975
5.4,890,5.4,1028,2028
5.6,969,5.6,1035,2035
5.8,921,5.8,993,1993
6,921,6,952,1952
6.2,993,6.2,1061,2061
6.4,911,6.4,1000,2000
6.6,961,6.6,1008,2008
6.8,963,6.8,916,1916
7,948,7,956,1956
7.2,927,7.2,968,1968
7.4,872,7.4,972,1972
7.6,958,7.6,963,1963
7.8,929,7.8,945,1945
8,954,8,942,1942
8.2,999,8.2,910,1910
8.4,914,8.4,917,1917
8.6,954,8.6,928,1928
8.8,976,8.8,941,1941
9,849,9,944,1944
9.2,957,9.2,902,1902
9.4,932,9.4,952,1952
9.6,947,9.6,951,1951
9.8,970,9.8,897,1897
10,936,10,974,1974
10.2,963,10.2,888,1888
10.4,945,10.4,872,1872
10.6,983,10.6,954,1954
10.8,1020,10.8,880,1880
11,1015,11,926,1926
11.2,978,11.2,912,1912
11.4,993,11.4,886,1886
11.6,1017,11.6,927,1927
11.8,1026,11.8,958,1958
12,1034,12,954,1954
12.2,1069,12.2,905,1905
12.4,1051,12.4,934,1934
12.6,993,12.6,1022,2022
12.8,1074,12.8,971,1971
13,1046,13,957,1957
13.2,1078,13.2,999,1999
13.4,1079,13.4,1011,2011
13.6,1147,13.6,1001,2001
13.8,1088,13.8,1016,2016
14,1118,14,996,1996
14.2,1144,14.2,1038,2038
14.4,1092,14.4,1064,2064
14.6,1142,14.6,1119,2119
14.8,1178,14.8,1115,2115
15,1199,15,1119,2119
15.2,1131,15.2,1122,2122
15.4,1211,15.4,1141,2141
15.6,1191,15.6,1158,2158
15.8,1227,15.8,1108,2108
16,1275,16,1200,2200
16.2,1215,16.2,1176,2176
16.4,1284,16.4,1245,2245
16.6,1342,16.6,1147,2147
16.8,1353,16.8,1180,2180
17,1349,17,1243,2243
17.2,1408,17.2,1300,2300
17.4,1312,17.4,1309,2309
17.6,1435,17.6,1289,2289
17.8,1402,17.8,1415,2415
18,1490,18,1365,2365
18.2,1497,18.2,1338,2338
18.4,1487,18.4,1405,2405
18.6,1579,18.6,1462,2462
18.8,1555,18.8,1486,2486
19,1634,19,1511,2511
19.2,1600,19.2,1457,2457
19.4,1566,19.4,1526,2526
19.6,1656,19.6,1561,2561
19.8,1723,19.8,1517,2517
20,1685,20,1612,2612
20.2,1790,20.2,1666,2666
20.4,1786,20.4,1662,2662
20.6,1754,20.6,1673,2673
20.8,1794,20.8,1674,2674
21,1851,21,1703,2703
21.2,1950,21.2,1769,2769
21.4,1850,21.4,1759,2759
21.6,1920,21.6,1822,2822
21.8,1912,21.8,1772,2772
22,2053,22,1846,2846
22.2,2011,22.2,1913,2913
22.4,2047,22.4,1869,2869
22.6,2066,22.6,1962,2962
22.8,1997,22.8,1946,2946
23,2065,23,1924,2924
23.2,2141,23.2,2046,3046
23.4,2141,23.4,2102,3102
23.6,2220,23.6,2116,3116
23.8,2003,23.8,2035,3035
24,2070,24,1912,2912
24.2,2077,24.2,1929,2929
24.4,2023,24.4,1907,2907
24.6,1947,24.6,1932,2932
24.8,2037,24.8,1904,2904
25,2106,25,1994,2994
25.2,2078,25.2,1836,2836
25.4,1928,25.4,1833,2833
25.6,1969,25.6,1810,2810
25.8,1897,25.8,1724,2724
26,1831,26,1776,2776
26.2,1897,26.2,1684,2684
26.4,1709,26.4,1629,2629
26.6,1750,26.6,1498,2498
26.8,1640,26.8,1547,2547
27,1631,27,1479,2479
27.2,1628,27.2,1418,2418
27.4,1461,27.4,1390,2390
27.6,1472,27.6,1378,2378
27.8,1359,27.8,1382,2382
28,1387,28,1280,2280
28.2,1390,28.2,1230,2230
28.4,1320,28.4,1190,2190
28.6,1372,28.6,1151,2151
28.8,1200,28.8,1109,2109
29,1120,29,1048,2048
29.2,1250,29.2,1011,2011
29.4,1096,29.4,1035,2035
29.6,1068,29.6,1006,2006
29.8,1018,29.8,878,1878
30,948,30,874,1874
30.2,936,30.2,818,1818
30.4,897,30.4,778,1778
30.6,895,30.6,822,1822
30.8,890,30.8,754,1754
31,799,31,729,1729
31.2,819,31.2,744,1744
31.4,798,31.4,713,1713
31.6,736,31.6,674,1674
31.8,745,31.8,662,1662
32,763,32,677,1677
32.2,729,32.2,631,1631
32.4,672,32.4,628,1628
32.6,711,32.6,609,1609
32.8,710,32.8,570,1570
33,569,33,599,1599
33.2,623,33.2,570,1570
33.4,576,33.4,582,1582
33.6,587,33.6,555,1555
33.8,608,33.8,584,1584
34,622,34,556,1556
34.2,582,34.2,542,1542
34.4,548,34.4,519,1519
34.6,572,34.6,555,1555
34.8,544,34.8,503,1503
35,540,35,486,1486
35.2,535,35.2,485,1485
35.4,505,35.4,503,1503
35.6,517,35.6,528,1528
35.8,516,35.8,494,1494
36,522,36,514,1514
36.2,536,36.2,515,1515
36.4,513,36.4,450,1450
36.6,491,36.6,477,1477
36.8,516,36.8,475,1475
37,554,37,474,1474
37.2,491,37.2,451,1451
37.4,502,37.4,451,1451
37.6,549,37.6,456,1456
37.8,523,37.8,484,1484
38,500,38,531,1531
38.2,521,38.2,461,1461
38.4,513,38.4,520,1520
38.6,537,38.6,500,1500
38.8,476,38.8,523,1523
39,563,39,473,1473
39.2,547,39.2,490,1490
39.4,547,39.4,521,1521
39.6,550,39.6,563,1563
39.8,530,39.8,593,1593
40,576,40,623,1623
40.2,600,40.2,658,1658
40.4,630,40.4,671,1671
40.6,631,40.6,608,1608
40.8,577,40.8,577,1577
41,644,41,647,1647
41.2,689,41.2,630,1630
41.4,719,41.4,653,1653
41.6,750,41.6,692,1692
41.8,790,41.8,721,1721
42,790,42,739,1739
42.2,645,42.2,758,1758
42.4,809,42.4,727,1727
42.6,778,42.6,771,1771
42.8,817,42.8,706,1706
43,802,43,807,1807
43.2,848,43.2,797,1797
43.4,880,43.4,728,1728
43.6,816,43.6,753,1753
43.8,790,43.8,766,1766
44,865,44,812,1812
44.2,831,44.2,756,1756
44.4,823,44.4,814,1814
44.6,837,44.6,739,1739
44.8,803,44.8,702,1702
45,779,45,680,1680
45.2,763,45.2,681,1681
45.4,718,45.4,668,1668
45.6,721,45.6,634,1634
45.8,710,45.8,661,1661
46,647,46,650,1650
46.2,731,46.2,608,1608
46.4,615,46.4,616,1616
46.6,630,46.6,581,1581
46.8,620,46.8,553,1553
47,570,47,518,1518
47.2,650,47.2,614,1614
47.4,598,47.4,522,1522
47.6,586,47.6,546,1546
47.8,591,47.8,530,1530
48,606,48,500,1500
48.2,500,48.2,481,1481
48.4,480,48.4,459,1459
48.6,495,48.6,451,1451
48.8,510,48.8,450,1450
49,532,49,415,1415
49.2,549,49.2,400,1400
49.4,536,49.4,395,1395
49.6,501,49.6,415,1415
49.8,483,49.8,452,1452
50,483,50,429,1429
50.2,477,50.2,476,1476
50.4,453,50.4,415,1415
50.6,498,50.6,455,1455
50.8,491,50.8,425,1425
51,480,51,410,1410
51.2,490,51.2,400,1400
51.4,460,51.4,395,1395
51.6,462,51.6,388,1388
51.8,375,51.8,428,1428
52,428,52,404,1404
52.2,408,52.2,393,1393
52.4,412,52.4,402,1402
52.6,411,52.6,409,1409
52.8,404,52.8,393,1393
53,397,53,351,1351
53.2,433,53.2,351,1351
53.4,428,53.4,382,1382
53.6,367,53.6,354,1354
53.8,394,53.8,368,1368
54,376,54,293,1293
54.2,386,54.2,338,1338
54.4,412,54.4,342,1342
54.6,392,54.6,324,1324
54.8,410,54.8,349,1349
55,332,55,342,1342
55.2,368,55.2,344,1344
55.4,354,55.4,304,1304
55.6,368,55.6,343,1343
55.8,361,55.8,327,1327
56,363,56,289,1289
56.2,395,56.2,301,1301
56.4,345,56.4,322,1322
56.6,346,56.6,334,1334
56.8,364,56.8,322,1322
57,325,57,304,1304
57.2,344,57.2,309,1309
57.4,377,57.4,305,1305
57.6,342,57.6,317,1317
57.8,334,57.8,303,1303
58,321,58,286,1286
58.2,306,58.2,328,1328
58.4,307,58.4,290,1290
58.6,327,58.6,316,1316
58.8,301,58.8,328,1328
59,385,59,543,1543
59.2,675,59.2,678,1678
59.4,688,59.4,470,1470
59.6,487,59.6,301,1301
59.8,315,59.8,271,1271
60,307,60,241,1241